File: data/2024-01-18  NiPS3 outPlane/test_raman_on_silicon_6mW_561nm_2s_pol_90deg.asc
559.987	555
560.034	555
560.081	553
560.127	554
560.173	555
560.22	556
560.266	557
560.313	557
560.359	556
560.406	556
560.452	555
560.4989	554
560.545	556
560.592	556
560.638	557
560.685	557
560.731	557
560.778	556
560.824	556
560.871	558
560.917	556
560.964	568
561.01	627
561.057	744
561.103	804
561.149	846
561.196	851
561.242	841
561.289	780
561.335	646
561.382	559
561.428	556
561.475	557
561.521	557
561.568	556
561.614	557
561.6604	556
561.707	557
561.7533	553
561.8	555
561.846	556
561.893	559
561.939	556
561.985	558
562.032	555
562.078	555
562.125	556
562.171	555
562.218	557
562.264	553
562.31	557
562.357	554
562.4032	556
562.45	555
562.496	555
562.542	556
562.589	554
562.635	557
562.682	559
562.728	554
562.774	559
562.8208	557
562.867	558
562.914	561
562.96	558
563.006	564
563.053	559
563.099	560
563.146	563
563.192	561
563.238	560
563.285	563
563.331	561
563.377	564
563.424	562
563.47	565
563.516	563
563.563	563
563.609	562
563.656	565
563.702	565
563.748	562
563.795	563
563.841	561
563.887	560
563.934	564
563.98	564
564.026	561
564.073	564
564.119	562
564.165	564
564.212	565
564.258	563
564.304	562
564.351	563
564.397	563
564.443	563
564.49	565
564.536	565
564.5824	566
564.629	563
564.675	564
564.721	567
564.7677	565
564.814	562
564.86	561
564.907	563
564.953	559
564.999	566
565.046	562
565.092	560
565.138	561
565.184	566
565.231	564
565.277	562
565.323	562
565.37	560
565.416	565
565.462	563
565.509	560
565.555	562
565.601	564
565.6474	560
565.694	563
565.74	562
565.786	562
565.832	561
565.879	560
565.925	565
565.971	560
566.018	563
566.064	560
566.11	562
566.156	563
566.203	566
566.2489	566
566.2951	562
566.341	567
566.388	563
566.4339	560
566.48	560
566.526	568
566.573	562
566.6189	565
566.6651	566
566.711	560
566.758	562
566.804	560
566.85	561
566.8963	561
566.9425	561
566.989	564
567.035	563
567.081	560
567.127	561
567.174	564
567.22	557
567.266	565
567.312	566
567.359	561
567.405	562
567.451	562
567.497	567
567.543	563
567.59	566
567.636	562
567.682	565
567.728	562
567.774	565
567.821	558
567.8667	562
567.9129	562
567.959	562
568.005	566
568.051	563
568.098	567
568.144	564
568.19	564
568.236	564
568.282	561
568.329	563
568.375	564
568.4209	562
568.467	566
568.513	565
568.559	571
568.606	565
568.652	566
568.698	563
568.744	561
568.79	562
568.836	565
568.883	567
568.929	565
568.975	565
569.021	566
569.067	564
569.113	563
569.159	568
569.206	562
569.252	564
569.298	564
569.344	561
569.39	562
569.436	564
569.4823	563
569.528	568
569.575	562
569.621	563
569.667	563
569.713	559
569.759	563
569.805	561
569.851	564
569.897	560
569.943	567
569.99	565
570.036	563
570.082	561
570.128	561
570.174	564
570.22	563
570.266	564
570.312	564
570.358	561
570.404	569
570.4505	565
570.497	565
570.543	563
570.589	560
570.635	562
570.681	564
570.727	560
570.773	566
570.819	561
570.865	565
570.911	560
570.957	566
571.003	565
571.049	564
571.096	566
571.1416	564
571.188	567
571.2337	562
571.28	562
571.326	569
571.372	566
571.418	566
571.464	561
571.51	564
571.556	564
571.602	563
571.648	560
571.694	561
571.74	566
571.786	563
571.832	561
571.878	565
571.924	565
571.97	567
572.0163	562
572.062	565
572.108	563
572.154	565
572.2	561
572.2464	565
572.292	563
572.338	561
572.3844	566
572.43	563
572.476	563
572.5224	562
572.568	561
572.614	565
572.6604	561
572.706	562
572.752	566
572.7984	564
572.844	561
572.89	562
572.936	560
572.9823	565
573.028	563
573.074	565
573.12	561
573.166	563
573.212	564
573.258	566
573.304	562
573.3501	565
573.396	565
573.442	563
573.488	562
573.534	566
573.5799	560
573.626	561
573.672	564
573.718	565
573.764	561
573.81	566
573.856	565
573.902	564
573.948	564
573.993	565
574.039	561
574.085	558
574.131	562
574.177	566
574.223	560
574.269	566
574.315	564
574.361	564
574.4068	567
574.4527	563
574.4986	564
574.545	564
574.59	561
574.636	564
574.682	568
574.728	566
574.774	560
574.82	565
574.866	566
574.9118	567
574.9577	562
575.0036	562
575.049	566
575.095	562
575.141	561
575.187	564
575.233	565
575.279	563
575.325	564
575.371	567
575.417	558
575.4624	567
575.5083	561
575.554	562
575.6	565
575.646	565
575.692	566
575.738	562
575.784	566
575.829	566
575.875	562
575.921	566
575.967	563
576.013	561
576.059	568
576.104	563
576.15	562
576.196	563
576.242	566
576.288	564
576.334	562
576.38	561
576.425	565
576.471	562
576.517	565
576.563	562
576.609	563
576.654	562
576.7	561
576.746	560
576.792	564
576.838	562
576.884	561
576.929	563
576.975	568
577.021	564
577.067	565
577.113	564
577.158	564
577.204	561
577.25	565
577.296	565
577.342	562
577.387	561
577.433	562
577.479	562
577.525	563
577.571	561
577.616	563
577.662	565
577.708	564
577.754	563
577.799	566
577.845	567
577.891	573
577.937	572
577.983	574
578.028	598
578.0741	610
578.12	612
578.166	617
578.211	603
578.257	593
578.303	577
578.349	576
578.394	570
578.44	568
578.486	566
578.532	570
578.577	566
578.623	564
578.669	567
578.715	565
578.76	564
578.806	564
578.852	563
578.897	564
578.943	562
578.989	564
579.035	566
579.08	563
579.126	567
579.172	561
579.217	562
579.263	561
579.3089	561
579.355	562
579.4	566
579.446	562
579.4917	567
579.537	564
579.583	565
579.629	563
579.6745	563
579.72	565
579.766	569
579.812	567
579.857	561
579.903	563
579.949	563
579.994	563
580.04	567
580.086	562
580.131	559
580.177	565
580.223	560
580.268	562
580.314	562
580.36	561
580.405	564
580.451	564
580.497	564
580.5423	562
580.588	565
580.634	563
580.679	561
580.725	563
580.771	565
580.816	563
580.862	564
580.907	563
580.953	563
580.999	563
581.044	562
581.09	567
581.136	564
581.181	565
581.227	565
581.272	558
581.318	565
581.364	565
581.4093	564
581.455	566
581.501	562
581.546	564
581.5918	564
581.637	561
581.683	566
581.729	565
581.774	563
581.82	566
581.865	564
581.911	561
581.957	567
582.002	564
582.048	563
582.093	566
582.139	562
582.185	569
582.23	565
582.276	564
582.321	565
582.367	562
582.412	564
582.458	566
582.503	567
582.549	566
582.5946	560
582.6402	563
582.686	561
582.731	568
582.777	565
582.822	563
582.868	563
582.914	568
582.959	566
583.005	562
583.05	562
583.0957	563
583.141	561
583.187	559
583.2323	564
583.278	568
583.323	565
583.3689	563
583.414	560
583.4599	564
583.505	563
583.551	562
583.5965	560
583.642	564
583.6875	562
583.733	562
583.7785	566
583.824	559
583.87	564
583.915	562
583.961	561
584.006	562
584.052	560
584.097	561
584.143	561
584.188	561
584.234	562
584.279	562
584.324	560
584.37	564
584.415	560
584.461	565
584.506	568
584.552	558
584.597	559
584.643	565
584.688	564
584.734	563
584.779	564
584.825	566
584.87	563
584.916	562
584.961	563
585.006	561
585.052	565
585.097	567
585.143	566
585.188	568
585.2337	566
585.279	567
585.325	561
585.37	562
585.415	562
585.461	563
585.506	563
585.552	562
585.597	564
585.643	561
585.688	561
585.733	562
585.779	565
585.824	561
585.87	563
585.9151	566
585.961	564
586.006	560
586.051	564
586.097	563
586.142	563
586.188	561
586.233	560
586.278	562
586.324	561
586.369	560
586.414	562
586.4599	563
586.505	561
586.551	563
586.596	565
586.641	564
586.687	563
586.732	563
586.778	562
586.823	566
586.868	565
586.914	562
586.959	565
587.004	561
587.05	565
587.095	564
587.14	562
587.186	564
587.231	565
587.276	563
587.322	563
587.367	563
587.413	564
587.458	562
587.503	564
587.549	563
587.594	562
587.639	565
587.685	560
587.73	558
587.775	565
587.8205	563
587.866	565
587.911	563
587.956	563
588.002	559
588.047	560
588.092	563
588.1377	565
588.183	565
588.228	563
588.274	563
588.319	564
588.3642	560
588.409	564
588.455	565
588.5	567
588.545	564
588.5907	563
588.636	563
588.681	558
588.7265	560
588.772	562
588.817	562
588.862	567
588.908	564
588.953	562
588.998	567
589.0434	560
589.089	564
589.134	561
589.1792	561
589.224	560
589.27	562
589.315	562
589.36	563
589.405	564
589.451	561
589.496	561
589.5412	559
589.586	565
589.632	561
589.677	565
589.722	563
589.7674	560
589.813	560
589.858	566
589.903	567
589.9483	562
589.994	560
590.039	562
590.084	562
590.129	561
590.174	562
590.2196	561
590.265	561
590.31	565
590.355	560
590.4	561
590.446	565
590.491	561
590.536	563
590.581	561
590.6264	564
590.672	562
590.717	563
590.762	566
590.807	564
590.852	562
590.897	565
590.943	565
590.988	562
591.033	563
591.078	559
591.123	565
591.169	565
591.214	563
591.259	562
591.304	563
591.349	560
591.394	566
591.439	563
591.485	564
591.53	563
591.575	561
591.62	563
591.665	566
591.71	559
591.755	561
591.8006	562
591.8457	559
591.891	559
591.936	562
591.981	565
592.026	566
592.071	564
592.116	560
592.162	567
592.207	562
592.252	566
592.297	564
592.342	563
592.387	563
592.432	563
592.477	565
592.522	564
592.568	567
592.613	561
592.658	566
592.703	567
592.748	564
592.793	567
592.838	565
592.883	566
592.928	568
592.973	563
593.018	562
593.063	567
593.109	564
593.154	567
593.199	562
593.244	565
593.289	563
593.334	570
593.379	565
593.424	565
593.469	570
593.5141	564
593.5592	565
593.604	567
593.649	566
593.694	564
593.739	564
593.784	570
593.829	560
593.874	567
593.919	565
593.965	567
594.01	564
594.055	566
594.1	563
594.145	563
594.19	563
594.235	563
594.28	565
594.325	566
594.37	561
594.415	563
594.46	565
594.5047	559
594.55	562
594.595	562
594.64	562
594.685	563
594.73	562
594.775	564
594.8197	564
594.865	559
594.91	559
594.955	561
595	563
595.045	565
595.0896	564
595.135	561
595.1795	561
595.224	567
595.269	566
595.314	562
595.359	563
595.404	560
595.449	561
595.494	565
595.539	560
595.584	560
595.629	563
595.674	564
595.719	566
595.764	559
595.8089	563
595.854	559
595.8988	562
595.944	567
595.989	563
596.034	559
596.078	562
596.123	560
596.168	561
596.213	561
596.258	563
596.3031	564
596.348	562
596.393	565
596.438	558
596.483	564
596.528	564
596.55	565

Date and Time:                Thu Jan 18 10:09:48.593 2024
Software Version:             4.30.30000.0
Temperature (C):              -55
Model:                        DU971P_BV
Data Type:                    Counts
Acquisition Mode:             Real Time
Trigger Mode:                 Internal
Exposure Time (secs):         2
Readout Mode:                 Multi-Track (User defined)
Number of Tracks:             1
Extended Dynamic Range:       off
Horizontally flipped:         false
Vertical Shift Speed (usecs): 4.88
Pixel Readout Rate (MHz):     0.05
Baseline Clamp:               OFF
Clock Amplitude:              Normal
Output Amplifier:             Conventional
Serial Number:                5696
Pre-Amplifier Gain:           1x
Spurious Noise Filter Mode:   No Filter
Photon counted:               false
Data Averaging Filter Mode:   No Filter
SR500i:
Serial Number:                SR-1231
Wavelength (nm):              578.417
Grating Groove Density (l/mm):1200.41
Grating Blaze:                500
Output Flipper Port:          Direct
Accessory Output Port 1:      Off
Accessory Output Port 2:      Off
Accessory Output Port 3:      Off
Accessory Input Port:         On