File: data/2023-11-20/d001_ZnO.csv
calibration,,calibration,,
Wavelength (nm),%T,Wavelength (nm),%T,
1600,82.1816,1600,82.1881,
1598,82.1859,1598,82.1936,
1596,82.1838,1596,82.198,
1594,82.2023,1594,82.2186,
1592,82.2063,1592,82.2124,
1590,82.2119,1590,82.217,
1588,82.2125,1588,82.221,
1586,82.219,1586,82.2152,
1584,82.2169,1584,82.2296,
1582,82.2191,1582,82.2339,
1580,82.2287,1580,82.2299,
1578,82.2212,1578,82.2299,
1576,82.2218,1576,82.2291,
1574,82.2249,1574,82.2375,
1572,82.2342,1572,82.2367,
1570,82.2304,1570,82.2379,
1568,82.2279,1568,82.2348,
1566,82.2347,1566,82.2419,
1564,82.2403,1564,82.2402,
1562,82.2402,1562,82.2398,
1560,82.2361,1560,82.2493,
1558,82.2442,1558,82.25,
1556,82.2485,1556,82.2486,
1554,82.2405,1554,82.2445,
1552,82.2539,1552,82.2597,
1550,82.2553,1550,82.2549,
1548,82.245,1548,82.2501,
1546,82.2457,1546,82.2561,
1544,82.248,1544,82.2586,
1542,82.2503,1542,82.2606,
1540,82.2492,1540,82.2566,
1538,82.2502,1538,82.2609,
1536,82.262,1536,82.2593,
1534,82.254,1534,82.261,
1532,82.25,1532,82.2597,
1530,82.2608,1530,82.2692,
1528,82.2564,1528,82.2645,
1526,82.2523,1526,82.2634,
1524,82.2513,1524,82.263,
1522,82.2637,1522,82.2668,
1520,82.2565,1520,82.2663,
1518,82.253,1518,82.2605,
1516,82.2602,1516,82.2672,
1514,82.2708,1514,82.2717,
1512,82.2525,1512,82.2638,
1510,82.2614,1510,82.2697,
1508,82.2633,1508,82.2695,
1506,82.2609,1506,82.2684,
1504,82.2568,1504,82.2636,
1502,82.2545,1502,82.2644,
1500,82.2616,1500,82.2706,
1498,82.2573,1498,82.2671,
1496,82.2522,1496,82.2655,
1494,82.2631,1494,82.2699,
1492,82.2524,1492,82.2634,
1490,82.256,1490,82.2638,
1488,82.2512,1488,82.2593,
1486,82.2588,1486,82.2654,
1484,82.2506,1484,82.2714,
1482,82.252,1482,82.2563,
1480,82.2474,1480,82.2539,
1478,82.2591,1478,82.2681,
1476,82.25,1476,82.2613,
1474,82.2511,1474,82.2536,
1472,82.2312,1472,82.2408,
1470,82.2328,1470,82.2423,
1468,82.2362,1468,82.2473,
1466,82.2436,1466,82.2538,
1464,82.2488,1464,82.251,
1462,82.2448,1462,82.2592,
1460,82.2467,1460,82.2542,
1458,82.2422,1458,82.245,
1456,82.2441,1456,82.2467,
1454,82.2387,1454,82.2525,
1452,82.2258,1452,82.2339,
1450,82.2203,1450,82.2161,
1448,82.2199,1448,82.2278,
1446,82.2173,1446,82.2201,
1444,82.2061,1444,82.2166,
1442,82.2246,1442,82.224,
1440,82.222,1440,82.2367,
1438,82.2097,1438,82.2288,
1436,82.2259,1436,82.2327,
1434,82.2159,1434,82.2195,
1432,82.2009,1432,82.2145,
1430,82.2111,1430,82.2193,
1428,82.2184,1428,82.2225,
1426,82.2155,1426,82.231,
1424,82.1886,1424,82.2065,
1422,82.1917,1422,82.2023,
1420,82.1883,1420,82.1903,
1418,82.179,1418,82.1918,
1416,82.1783,1416,82.1985,
1414,82.1677,1414,82.1744,
1412,82.1788,1412,82.1841,
1410,82.1674,1410,82.1776,
1408,82.1497,1408,82.1672,
1406,82.1678,1406,82.1762,
1404,82.1569,1404,82.1603,
1402,82.1605,1402,82.1721,
1400,82.1369,1400,82.1507,
1398,82.1824,1398,82.1868,
1396,82.1295,1396,82.1388,
1394,82.1564,1394,82.1732,
1392,82.1681,1392,82.1745,
1390,82.1731,1390,82.1796,
1388,82.1312,1388,82.1413,
1386,82.1345,1386,82.1558,
1384,82.1131,1384,82.124,
1382,82.1045,1382,82.1127,
1380,82.1758,1380,82.1816,
1378,82.1868,1378,82.1865,
1376,82.1597,1376,82.1637,
1374,82.1525,1374,82.1606,
1372,82.1335,1372,82.155,
1370,82.118,1370,82.1216,
1368,82.1217,1368,82.1304,
1366,82.1362,1366,82.1492,
1364,82.1423,1364,82.1581,
1362,82.1338,1362,82.1368,
1360,82.1549,1360,82.1568,
1358,82.1646,1358,82.1742,
1356,82.1346,1356,82.1478,
1354,82.1454,1354,82.152,
1352,82.1411,1352,82.1525,
1350,82.1311,1350,82.1479,
1348,82.1273,1348,82.1322,
1346,82.1203,1346,82.1307,
1344,82.1097,1344,82.1199,
1342,82.113,1342,82.13,
1340,82.121,1340,82.1289,
1338,82.1164,1338,82.1216,
1336,82.0963,1336,82.1174,
1334,82.1002,1334,82.1135,
1332,82.0983,1332,82.0983,
1330,82.0841,1330,82.0872,
1328,82.0796,1328,82.0913,
1326,82.08181,1326,82.0914,
1324,82.0752,1324,82.0879,
1322,82.0647,1322,82.0792,
1320,82.0683,1320,82.0788,
1318,82.0591,1318,82.0803,
1316,82.0355,1316,82.0508,
1314,82.0343,1314,82.0546,
1312,82.0483,1312,82.0552,
1310,82.0544,1310,82.0648,
1308,82.0537,1308,82.0624,
1306,82.0602,1306,82.0653,
1304,82.0527,1304,82.0619,
1302,82.0569,1302,82.0653,
1300,82.0562,1300,82.0676,
1298,82.0618,1298,82.0732,
1296,82.0614,1296,82.0767,
1294,82.0561,1294,82.0641,
1292,82.0519,1292,82.0652,
1290,82.0518,1290,82.0603,
1288,82.0453,1288,82.0588,
1286,82.0356,1286,82.0473,
1284,82.0365,1284,82.0453,
1282,82.0173,1282,82.0313,
1280,82.0145,1280,82.0255,
1278,82.0193,1278,82.0346,
1276,82.0162,1276,82.0273,
1274,82.0182,1274,82.0225,
1272,82.0127,1272,82.027,
1270,82.0107,1270,82.0224,
1268,81.9996,1268,82.016,
1266,82.0039,1266,82.006,
1264,81.9902,1264,82.0143,
1262,81.9972,1262,82.0016,
1260,81.9961,1260,82.0064,
1258,81.9914,1258,82.0088,
1256,81.9817,1256,81.9992,
1254,81.9868,1254,81.9914,
1252,81.9873,1252,82.0036,
1250,81.9773,1250,81.9971,
1248,81.9789,1248,81.9917,
1246,81.9774,1246,81.9921,
1244,81.9801,1244,81.9928,
1242,81.9675,1242,81.9818,
1240,81.9772,1240,81.9805,
1238,81.9724,1238,81.9818,
1236,81.9719,1236,81.9884,
1234,81.9549,1234,81.9723,
1232,81.9628,1232,81.968,
1230,81.9696,1230,81.9795,
1228,81.9581,1228,81.9763,
1226,81.9649,1226,81.9725,
1224,81.96,1224,81.9737,
1222,81.9618,1222,81.9752,
1220,81.954,1220,81.9707,
1218,81.9553,1218,81.964,
1216,81.9561,1216,81.9673,
1214,81.9526,1214,81.9691,
1212,81.9465,1212,81.963,
1210,81.9512,1210,81.9618,
1208,81.9606,1208,81.9702,
1206,81.9545,1206,81.9704,
1204,81.9592,1204,81.9701,
1202,81.9602,1202,81.9665,
1200,81.957,1200,81.9683,
1198,81.9433,1198,81.9608,
1196,81.9345,1196,81.949,
1194,81.9321,1194,81.9366,
1192,81.9181,1192,81.9339,
1190,81.9237,1190,81.9379,
1188,81.9151,1188,81.9326,
1186,81.9129,1186,81.927,
1184,81.913,1184,81.9324,
1182,81.9098,1182,81.9263,
1180,81.9159,1180,81.9276,
1178,81.9067,1178,81.9225,
1176,81.9113,1176,81.9284,
1174,81.912,1174,81.9289,
1172,81.9075,1172,81.9186,
1170,81.9066,1170,81.9263,
1168,81.9057,1168,81.9238,
1166,81.9115,1166,81.925,
1164,81.9046,1164,81.9128,
1162,81.8877,1162,81.9192,
1160,81.8451,1160,81.8941,
1158,81.9109,1158,81.923,
1156,81.9041,1156,81.9217,
1154,81.9032,1154,81.924,
1152,81.8834,1152,81.9166,
1150,81.8883,1150,81.8995,
1148,81.8915,1148,81.8954,
1146,81.8808,1146,81.893,
1144,81.8943,1144,81.9083,
1142,81.894,1142,81.9081,
1140,81.9014,1140,81.9186,
1138,81.9009,1138,81.9145,
1136,81.9011,1136,81.9089,
1134,81.8743,1134,81.8941,
1132,81.8995,1132,81.9089,
1130,81.8967,1130,81.9084,
1128,81.8855,1128,81.9005,
1126,81.882,1126,81.8948,
1124,81.8761,1124,81.8919,
1122,81.8779,1122,81.8939,
1120,81.8608,1120,81.883,
1118,81.8536,1118,81.8857,
1116,81.8677,1116,81.8843,
1114,81.8642,1114,81.8642,
1112,81.8615,1112,81.8716,
1110,81.8628,1110,81.8657,
1108,81.8544,1108,81.855,
1106,81.8253,1106,81.8459,
1104,81.8267,1104,81.8521,
1102,81.8318,1102,81.84,
1100,81.8186,1100,81.838,
1098,81.8031,1098,81.8278,
1096,81.8175,1096,81.8229,
1094,81.8048,1094,81.8233,
1092,81.7946,1092,81.8125,
1090,81.7848,1090,81.8037,
1088,81.786,1088,81.7968,
1086,81.7792,1086,81.8,
1084,81.7698,1084,81.7863,
1082,81.7569,1082,81.7841,
1080,81.7519,1080,81.7699,
1078,81.7569,1078,81.7706,
1076,81.7396,1076,81.759,
1074,81.7264,1074,81.7503,
1072,81.7306,1072,81.7397,
1070,81.7173,1070,81.7369,
1068,81.7088,1068,81.7246,
1066,81.7013,1066,81.7112,
1064,81.6975,1064,81.7113,
1062,81.6797,1062,81.7001,
1060,81.672,1060,81.6878,
1058,81.6646,1058,81.6784,
1056,81.6515,1056,81.6688,
1054,81.6373,1054,81.6624,
1052,81.6297,1052,81.6436,
1050,81.6264,1050,81.6327,
1048,81.611,1048,81.634,
1046,81.5975,1046,81.6151,
1044,81.5942,1044,81.6065,
1042,81.5841,1042,81.5961,
1040,81.5638,1040,81.5843,
1038,81.5605,1038,81.5674,
1036,81.5519,1036,81.5589,
1034,81.5163,1034,81.5326,
1032,81.513,1032,81.5314,
1030,81.5061,1030,81.5119,
1028,81.4867,1028,81.4982,
1026,81.4648,1026,81.492,
1024,81.4541,1024,81.4664,
1022,81.4385,1022,81.4475,
1020,81.4154,1020,81.4272,
1018,81.3976,1018,81.4182,
1016,81.3838,1016,81.3959,
1014,81.3661,1014,81.3717,
1012,81.3333,1012,81.3568,
1010,81.3188,1010,81.3337,
1008,81.3017,1008,81.3102,
1006,81.2766,1006,81.2842,
1004,81.2515,1004,81.2724,
1002,81.2173,1002,81.2291,
1000,81.204,1000,81.2144,
998,81.1755,998,81.1874,
996,81.1498,996,81.1681,
994,81.1137,994,81.1287,
992,81.099,992,81.1066,
990,81.0641,990,81.083,
988,81.0492,988,81.0639,
986,81.0288,986,81.0414,
984,81.0157,984,81.0229,
982,80.9919,982,81.012,
980,80.9871,980,81.005,
978,80.9822,978,80.9962,
976,80.9699,976,80.9895,
974,80.9747,974,80.9913,
972,80.9698,972,80.9788,
970,80.9448,970,80.9533,
968,80.9137,968,80.9329,
966,80.8947,966,80.9117,
964,80.8734,964,80.8834,
962,80.8401,962,80.8486,
960,80.816,960,80.8314,
958,80.7951,958,80.81,
956,80.7679,956,80.7784,
954,80.7255,954,80.743,
952,80.7008,952,80.7178,
950,80.6829,950,80.6966,
948,80.6438,948,80.6551,
946,80.6208,946,80.6436,
944,80.5989,944,80.6168,
942,80.572,942,80.5844,
940,80.5422,940,80.5583,
938,80.5132,938,80.5311,
936,80.4897,936,80.5051,
934,80.474,934,80.4845,
932,80.4265,932,80.4496,
930,80.4068,930,80.4263,
928,80.3696,928,80.3835,
926,80.3165,926,80.3317,
924,80.2675,924,80.2881,
922,80.2197,922,80.239,
920,80.1817,920,80.1965,
918,80.1196,918,80.1354,
916,80.0622,916,80.0758,
914,80.0194,914,80.0329,
912,79.9582,912,79.9704,
910,79.891,910,79.9061,
908,79.8486,908,79.8604,
906,79.7751,906,79.794,
904,79.7023,904,79.7212,
902,79.6419,902,79.6567,
900,79.5716,900,79.5905,
898,79.5107,898,79.5247,
896,79.431,896,79.4467,
894,79.3602,894,79.3737,
892,79.292,892,79.308,
890,79.2055,890,79.2177,
888,79.1226,888,79.1392,
886,79.0403,886,79.0546,
884,78.9574,884,78.973,
882,78.881,882,78.8974,
880,78.7811,880,78.7924,
878,78.6834,878,78.6992,
876,78.6105,876,78.6181,
874,78.496,874,78.52,
872,78.3941,872,78.4082,
870,78.3204,870,78.3363,
868,78.2141,868,78.2372,
866,78.1113,866,78.1332,
864,78.0239,864,78.0386,
862,77.9312,862,77.9431,
860,77.8205,860,77.8477,
858,77.7306,858,77.7407,
856,77.6362,856,77.6526,
854,77.5446,854,77.5612,
852,77.4444,852,77.4642,
850,77.3547,850,77.3699,
848,77.2636,848,77.276,
846,77.1542,846,77.1805,
844,77.0862,844,77.105,
842,76.9921,842,77.014,
840,76.9164,840,76.9286,
838,76.826,838,76.8539,
836,76.7488,836,76.7618,
834,76.6745,834,76.6918,
832,76.5977,832,76.616,
830,76.5258,830,76.5512,
828,76.4581,828,76.4808,
826,76.3993,826,76.4199,
824,76.3287,824,76.3586,
822,76.2736,822,76.2968,
820,76.2195,820,76.237,
818,76.1651,818,76.1874,
816,76.1078,816,76.142,
814,76.0586,814,76.0782,
812,76.0242,812,76.0407,
810,75.9698,810,75.997,
808,75.9281,808,75.9547,
806,75.8948,806,75.9145,
804,75.853,804,75.8695,
802,75.804,802,75.8372,
800,75.7651,800,75.791,
799,83.394,799,83.8445,
798,83.3513,798,83.7856,
797,83.349,797,83.7733,
796,83.3573,796,83.7531,
795,83.3626,795,83.7607,
794,83.3545,794,83.7311,
793,83.3261,793,83.7448,
792,83.3298,792,83.7106,
791,83.3223,791,83.7172,
790,83.3288,790,83.7147,
789,83.3255,789,83.7253,
788,83.3179,788,83.6909,
787,83.3007,787,83.679,
786,83.2871,786,83.6668,
785,83.3018,785,83.6812,
784,83.3087,784,83.6902,
783,83.2979,783,83.6713,
782,83.2806,782,83.6805,
781,83.2703,781,83.6585,
780,83.2916,780,83.6529,
779,83.2882,779,83.6668,
778,83.269,778,83.6447,
777,83.2859,777,83.651,
776,83.279,776,83.6312,
775,83.255,775,83.6197,
774,83.2484,774,83.6156,
773,83.253,773,83.6444,
772,83.2447,772,83.6294,
771,83.2429,771,83.6087,
770,83.2416,770,83.5861,
769,83.2172,769,83.5699,
768,83.2103,768,83.5856,
767,83.2368,767,83.5887,
766,83.1979,766,83.5952,
765,83.1964,765,83.5682,
764,83.1908,764,83.5507,
763,83.1719,763,83.5394,
762,83.1814,762,83.556,
761,83.1866,761,83.5349,
760,83.1691,760,83.5174,
759,83.1499,759,83.4965,
758,83.1412,758,83.4895,
757,83.1337,757,83.4648,
756,83.1491,756,83.4647,
755,83.1266,755,83.5019,
754,83.1018,754,83.4679,
753,83.0885,753,83.4424,
752,83.0853,752,83.4298,
751,83.0853,751,83.4441,
750,83.0755,750,83.4207,
749,83.0622,749,83.4177,
748,83.0344,748,83.4033,
747,83.038,747,83.3791,
746,83.013,746,83.3547,
745,83.0168,745,83.3727,
744,83.0178,744,83.3617,
743,83.0288,743,83.3509,
742,82.9782,742,83.3188,
741,82.9684,741,83.308,
740,82.9647,740,83.2929,
739,82.9493,739,83.2787,
738,82.9501,738,83.2875,
737,82.94,737,83.2777,
736,82.9247,736,83.2624,
735,82.901,735,83.2345,
734,82.8885,734,83.2244,
733,82.8856,733,83.229,
732,82.8803,732,83.2097,
731,82.8673,731,83.1881,
730,82.8498,730,83.1868,
729,82.8477,729,83.1684,
728,82.831,728,83.171,
727,82.8117,727,83.1441,
726,82.8177,726,83.1393,
725,82.8011,725,83.1072,
724,82.7756,724,83.11763,
723,82.7658,723,83.0655,
722,82.7749,722,83.0746,
721,82.7529,721,83.0901,
720,82.7219,720,83.0583,
719,82.7229,719,83.0363,
718,82.7038,718,83.0213,
717,82.6897,717,83.0294,
716,82.683,716,83.006,
715,82.6967,715,82.9878,
714,82.6636,714,82.9599,
713,82.6459,713,82.956,
712,82.6307,712,82.9176,
711,82.6226,711,82.9196,
710,82.6104,710,82.9175,
709,82.5899,709,82.8885,
708,82.5735,708,82.8775,
707,82.5642,707,82.8579,
706,82.5394,706,82.8689,
705,82.54,705,82.8338,
704,82.5229,704,82.822,
703,82.5022,703,82.8027,
702,82.4885,702,82.7861,
701,82.4825,701,82.7685,
700,82.4729,700,82.7631,
699,82.4644,699,82.7513,
698,82.4375,698,82.719,
697,82.4179,697,82.7075,
696,82.4089,696,82.7052,
695,82.3936,695,82.6976,
694,82.3863,694,82.6705,
693,82.3735,693,82.6486,
692,82.3433,692,82.6257,
691,82.34,691,82.6317,
690,82.3155,690,82.6178,
689,82.3192,689,82.5858,
688,82.291,688,82.5725,
687,82.2778,687,82.5405,
686,82.2692,686,82.5418,
685,82.2538,685,82.5161,
684,82.2228,684,82.5024,
683,82.2082,683,82.4904,
682,82.2099,682,82.476,
681,82.1949,681,82.4604,
680,82.1697,680,82.4443,
679,82.1586,679,82.4279,
678,82.1527,678,82.4148,
677,82.1271,677,82.3944,
676,82.097,676,82.3739,
675,82.0982,675,82.3643,
674,82.0834,674,82.3486,
673,82.0661,673,82.3289,
672,82.0524,672,82.3249,
671,82.0491,671,82.3006,
670,82.0237,670,82.2739,
669,82.0144,669,82.2851,
668,81.9941,668,82.2603,
667,81.9934,667,82.2436,
666,81.9836,666,82.2432,
665,81.9622,665,82.2263,
664,81.9584,664,82.2156,
663,81.9424,663,82.2055,
662,81.9358,662,82.2046,
661,81.927,661,82.1979,
660,81.9207,660,82.1795,
659,81.9086,659,82.1766,
658,81.9144,658,82.1767,
657,81.9018,657,82.1732,
656,81.8979,656,82.1528,
655,81.8823,655,82.1475,
654,81.8709,654,82.1459,
653,81.8671,653,82.1373,
652,81.8642,652,82.1411,
651,81.8477,651,82.1237,
650,81.847,650,82.1281,
649,81.8353,649,82.1048,
648,81.8106,648,82.0872,
647,81.7924,647,82.0744,
646,81.7923,646,82.072,
645,81.7661,645,82.0464,
644,81.7514,644,82.0318,
643,81.7285,643,82.0098,
642,81.7066,642,81.9909,
641,81.6848,641,81.965,
640,81.6279,640,81.909,
639,81.6185,639,81.9067,
638,81.5814,638,81.8651,
637,81.5291,637,81.8099,
636,81.5068,636,81.7993,
635,81.477,635,81.7632,
634,81.4279,634,81.7142,
633,81.3716,633,81.6586,
632,81.3272,632,81.619,
631,81.2799,631,81.5658,
630,81.2333,630,81.5175,
629,81.1835,629,81.4724,
628,81.1487,628,81.4314,
627,81.103,627,81.3916,
626,81.0681,626,81.3493,
625,81.0191,625,81.311,
624,80.9912,624,81.2704,
623,80.9836,623,81.256,
622,80.9336,622,81.2137,
621,80.9031,621,81.1859,
620,80.8813,620,81.16,
619,80.8118,619,81.0907,
618,80.7611,618,81.0369,
617,80.7375,617,81.0089,
616,80.7076,616,80.9867,
615,80.6665,615,80.9429,
614,80.6084,614,80.885,
613,80.5722,613,80.8382,
612,80.5328,612,80.8102,
611,80.4896,611,80.7676,
610,80.4628,610,80.743,
609,80.431,609,80.7064,
608,80.3915,608,80.6723,
607,80.353,607,80.6377,
606,80.3327,606,80.6181,
605,80.2786,605,80.5655,
604,80.2424,604,80.532,
603,80.2165,603,80.5004,
602,80.1918,602,80.4754,
601,80.1682,601,80.456,
600,80.1413,600,80.4257,
599,80.1236,599,80.4004,
598,80.1034,598,80.3928,
597,80.0806,597,80.366,
596,80.0587,596,80.3405,
595,80.0381,595,80.3244,
594,80.0301,594,80.3153,
593,80.0211,593,80.284,
592,80.0117,592,80.2828,
591,79.9991,591,80.2668,
590,79.9502,590,80.2268,
589,79.9035,589,80.1831,
588,79.8643,588,80.1295,
587,79.7989,587,80.0625,
586,79.7631,586,80.0344,
585,79.7141,585,79.9792,
584,79.655,584,79.9001,
583,79.593,583,79.8467,
582,79.5557,582,79.8056,
581,79.509,581,79.7502,
580,79.4514,580,79.6777,
579,79.3853,579,79.6277,
578,79.3443,578,79.5886,
577,79.3015,577,79.527,
576,79.2789,576,79.4963,
575,79.2261,575,79.4533,
574,79.2001,574,79.4093,
573,79.185,573,79.4024,
572,79.1539,572,79.3673,
571,79.1239,571,79.3398,
570,79.1013,570,79.2935,
569,79.1723,569,79.3302,
568,79.1733,568,79.3256,
567,79.1517,567,79.3214,
566,79.1468,566,79.3139,
565,79.1309,565,79.3002,
564,79.1152,564,79.2746,
563,79.11,563,79.265,
562,79.084,562,79.2572,
561,79.0787,561,79.2323,
560,79.05,560,79.214,
559,79.0353,559,79.1974,
558,79.0111,558,79.1787,
557,79.01,557,79.1591,
556,78.9875,556,79.1496,
555,78.9707,555,79.1275,
554,78.9524,554,79.1018,
553,78.9262,553,79.082,
552,78.9143,552,79.072,
551,78.8957,551,79.0459,
550,78.8899,550,79.0199,
549,78.8555,549,79.0057,
548,78.8455,548,78.9958,
547,78.8156,547,78.967,
546,78.8017,546,78.947,
545,78.7755,545,78.9293,
544,78.7404,544,78.9022,
543,78.7279,543,78.8712,
542,78.6978,542,78.8488,
541,78.6756,541,78.8267,
540,78.6478,540,78.8072,
539,78.635,539,78.7747,
538,78.6043,538,78.7468,
537,78.5724,537,78.7158,
536,78.5503,536,78.6914,
535,78.5257,535,78.6656,
534,78.4924,534,78.6377,
533,78.4585,533,78.5999,
532,78.4371,532,78.567,
531,78.3986,531,78.5364,
530,78.3693,530,78.5102,
529,78.3375,529,78.4773,
528,78.3081,528,78.4349,
527,78.261,527,78.4101,
526,78.2251,526,78.3669,
525,78.1998,525,78.354,
524,78.1713,524,78.2971,
523,78.1302,523,78.2668,
522,78.0851,522,78.2415,
521,78.0589,521,78.1898,
520,78.0217,520,78.1529,
519,77.9624,519,78.1067,
518,77.9346,518,78.0628,
517,77.893,517,78.015,
516,77.8376,516,77.9779,
515,77.7989,515,77.9274,
514,77.7584,514,77.8887,
513,77.7076,513,77.8348,
512,77.6594,512,77.7781,
511,77.6011,511,77.7414,
510,77.5653,510,77.6792,
509,77.5101,509,77.6285,
508,77.4516,508,77.5757,
507,77.3971,507,77.5173,
506,77.3474,506,77.4623,
505,77.2795,505,77.4,
504,77.2183,504,77.3425,
503,77.1595,503,77.2792,
502,77.0996,502,77.2216,
501,77.0323,501,77.1512,
500,76.967,500,77.0833,
499,76.9059,499,77.0195,
498,76.8303,498,76.9504,
497,76.7546,497,76.8728,
496,76.6865,496,76.8009,
495,76.5981,495,76.7222,
494,76.5313,494,76.6386,
493,76.4332,493,76.5484,
492,76.3582,492,76.4749,
491,76.2646,491,76.3878,
490,76.179,490,76.2827,
489,76.0785,489,76.1897,
488,75.9876,488,76.1072,
487,75.8881,487,75.9997,
486,75.7769,486,75.8892,
485,75.677,485,75.7955,
484,75.5761,484,75.6853,
483,75.4588,483,75.566,
482,75.3349,482,75.4499,
481,75.2174,481,75.3272,
480,75.0802,480,75.2202,
479,74.9303,479,75.055,
478,74.806,478,74.9089,
477,74.6746,477,74.7816,
476,74.5332,476,74.6388,
475,74.3799,475,74.4914,
474,74.2361,474,74.3395,
473,74.0861,473,74.1963,
472,73.9264,472,74.0319,
471,73.7505,471,73.8705,
470,73.5904,470,73.6838,
469,73.4083,469,73.5125,
468,73.2268,468,73.332,
467,73.0388,467,73.1429,
466,72.8494,466,72.9418,
465,72.6436,465,72.7487,
464,72.4294,464,72.5404,
463,72.2228,463,72.3199,
462,72.0053,462,72.1123,
461,71.7674,461,71.8823,
460,71.5419,460,71.6462,
459,71.2914,459,71.3805,
458,71.0253,458,71.1321,
457,70.7726,457,70.8671,
456,70.5073,456,70.6027,
455,70.2445,455,70.3318,
454,69.9607,454,70.0608,
453,69.6721,453,69.7752,
452,69.3826,452,69.4651,
451,69.0824,451,69.1786,
450,68.7599,450,68.8634,
449,68.4381,449,68.53,
448,68.1012,448,68.1895,
447,67.7707,447,67.862,
446,67.4083,446,67.5145,
445,67.0468,445,67.1498,
444,66.6832,444,66.7698,
443,66.2975,443,66.3989,
442,65.917,442,66.01,
441,65.5146,441,65.6172,
440,65.1167,440,65.2124,
439,64.6974,439,64.7969,
438,64.2721,438,64.3742,
437,63.841,437,63.9387,
436,63.3962,436,63.4938,
435,62.9455,435,63.045,
434,62.4913,434,62.5814,
433,62.0093,433,62.1017,
432,61.5142,432,61.6074,
431,61.0227,431,61.1275,
430,60.5311,430,60.6214,
429,60.0313,429,60.1186,
428,59.5103,428,59.6,
427,58.98,427,59.0689,
426,58.4476,426,58.5405,
425,57.8947,425,57.9825,
424,57.3192,424,57.417,
423,56.7666,423,56.8543,
422,56.201,422,56.2927,
421,55.6286,421,55.7177,
420,55.0223,420,55.1212,
419,54.4112,419,54.5098,
418,53.8046,418,53.8849,
417,53.1586,417,53.2624,
416,52.5059,416,52.6,
415,51.8316,415,51.9229,
414,51.1189,414,51.197,
413,50.3773,413,50.47,
412,49.6123,412,49.7189,
411,48.7934,411,48.8775,
410,47.9106,410,47.9969,
409,46.96,409,47.0571,
408,45.8928,408,46.009,
407,44.7308,407,44.8259,
406,43.4324,406,43.5347,
405,41.9446,405,42.0543,
404,40.3235,404,40.4217,
403,38.4422,403,38.5484,
402,36.2994,402,36.4275,
401,33.8845,401,33.9858,
400,31.2046,400,31.316,
,,399,28.3665,
,,398,25.1204,
,,397,21.7431,
,,396,18.3672,
,,395,15.038,
,,394,12.1242,
,,393,9.81893,
,,392,8.26204,
,,391,7.46321,
,,390,7.15615,
,,389,7.06067,
,,388,7.06129,
,,387,7.0818,
,,386,7.06687,
,,385,7.09266,
,,384,7.10027,
,,383,7.0926,
,,382,7.11556,
,,381,7.11596,
,,380,7.12867,
,,379,7.1349,
,,378,7.14388,
,,377,7.15018,
,,376,7.16054,
,,375,7.16626,
,,374,7.17162,
,,373,7.1957,
,,372,7.19139,
,,371,7.19525,
,,370,7.21144,
,,369,7.21128,
,,368,7.22804,
,,367,7.23781,
,,366,7.2455,
,,365,7.25255,
,,364,7.27051,
,,363,7.27227,
,,362,7.27473,
,,361,7.29528,
,,360,7.30122,
,,359,7.3112,
,,358,7.33476,
,,357,7.33146,
,,356,7.34942,
,,355,7.36792,
,,354,7.37066,
,,353,7.39076,
,,352,7.39537,
,,351,7.41285,
,,350,7.41279,
,,349,5.30699,
,,348,5.30204,
,,347,5.2972,
,,346,5.30635,
,,345,5.28404,
,,344,5.27294,
,,343,5.27832,
,,342,5.2713,
,,341,5.25699,
,,340,5.26647,
,,339,5.26461,
,,338,5.27591,
,,337,5.27046,
,,336,5.2753,
,,335,5.28288,
,,334,5.27491,
,,333,5.28091,
,,332,5.29267,
,,331,5.29568,
,,330,5.30592,
,,329,5.30638,
,,328,5.32396,
,,327,5.31786,
,,326,5.33426,
,,325,5.33596,
,,324,5.34926,
,,323,5.35832,
,,322,5.35548,
,,321,5.37759,
,,320,5.37817,
,,319,5.38599,
,,318,5.3963,
,,317,5.41027,
,,316,5.41069,
,,315,5.42507,
,,314,5.42779,
,,313,5.42896,
,,312,5.4441,
,,311,5.45052,
,,310,5.4524,
,,309,5.45991,
,,308,5.46956,
,,307,5.47072,
,,306,5.48024,
,,305,5.4724,
,,304,5.48639,
,,303,5.481,
,,302,5.50473,
,,301,5.47719,
,,300,5.46062,

calibration,
calibration
Collection Time: 20/11/2023 11:08:45 AM
Operator Name  :
Scan Software Version: 4.10(464)
Parameter List :
Instrument                        Cary 5000
Instrument Version                1.12
Start (nm)                        1600.00
Stop (nm)                         400.00
X Mode                            Nanometers
Y Mode                            %T
Independent NIR                   On
Measurement Mode                  Auto
UV-Vis Scan Rate (nm/min)         600.000
UV-Vis Data Interval (nm)         1.00
UV-Vis Ave. Time (sec)            0.100
UV-Vis SBW (nm)                   2.000
NIR Scan Rate (nm/min)            1200.000
NIR Data Interval (nm)            2.00
NIR Ave. Time (sec)               0.100
NIR Energy                        3.00
Slit Height                       Full
Beam Mode                         Double
Signal-to-noise Mode              Off
UV Source                         On
Vis Source                        On
Third Source                      Off
Source Changeover (nm)            350.00
Detector Changeover (nm)          800.00
Grating Changeover (nm)           800.00
Baseline Correction               Off
Cycle Mode                        Off
Comments
Method Log     :
Method Name    :
Date/Time stamp: 20/11/2023 10:56:02 AM
Method Modifications:
X Start nm Changed: 20/11/2023 11:08:07 AM, Old: 800.00, New:1600.00
X Stop nm Changed: 20/11/2023 11:08:07 AM, Old: 200.00, New: 400.00
Y mode Changed: 20/11/2023 11:08:07 AM, Old:Abs, New:%T
Idpt Control Changed: 20/11/2023 11:08:07 AM, Old:0, New:1
NIR Scan Rate nm Changed: 20/11/2023 11:08:07 AM, Old:  600.000, New: 1200.000
NIR Interval nm Changed: 20/11/2023 11:08:07 AM, Old:     1.00, New:     2.00
Storage Changed: 20/11/2023 11:08:07 AM, Old:1, New:0
End Method Modifications
<SBW (nm)> , 2.00
<Energy> , 19.95
<Slit height> , Full
<Current Wavelength> , 400.00

calibration,
calibration
Collection Time: 20/11/2023 11:15:04 AM
Operator Name  :
Scan Software Version: 4.10(464)
Parameter List :
Instrument                        Cary 5000
Instrument Version                1.12
Start (nm)                        1600.00
Stop (nm)                         300.00
X Mode                            Nanometers
Y Mode                            %T
Independent NIR                   On
Measurement Mode                  Auto
UV-Vis Scan Rate (nm/min)         600.000
UV-Vis Data Interval (nm)         1.00
UV-Vis Ave. Time (sec)            0.100
UV-Vis SBW (nm)                   2.000
NIR Scan Rate (nm/min)            1200.000
NIR Data Interval (nm)            2.00
NIR Ave. Time (sec)               0.100
NIR Energy                        3.00
Slit Height                       Full
Beam Mode                         Double
Signal-to-noise Mode              Off
UV Source                         On
Vis Source                        On
Third Source                      Off
Source Changeover (nm)            350.00
Detector Changeover (nm)          800.00
Grating Changeover (nm)           800.00
Baseline Correction               Off
Cycle Mode                        Off
Comments
Method Log     :
Method Name    :
Date/Time stamp: 20/11/2023 10:56:02 AM
Method Modifications:
X Start nm Changed: 20/11/2023 11:08:07 AM, Old: 800.00, New:1600.00
X Stop nm Changed: 20/11/2023 11:08:07 AM, Old: 200.00, New: 400.00
Y mode Changed: 20/11/2023 11:08:07 AM, Old:Abs, New:%T
Idpt Control Changed: 20/11/2023 11:08:07 AM, Old:0, New:1
NIR Scan Rate nm Changed: 20/11/2023 11:08:07 AM, Old:  600.000, New: 1200.000
NIR Interval nm Changed: 20/11/2023 11:08:07 AM, Old:     1.00, New:     2.00
Storage Changed: 20/11/2023 11:08:07 AM, Old:1, New:0
X Stop nm Changed: 20/11/2023 11:14:47 AM, Old: 400.00, New: 300.00
End Method Modifications
<SBW (nm)> , 2.00
<Energy> , 45.71
<Slit height> , Full
<Current Wavelength> , 300.00